Folder: Ec

File: SCM-based_concrete_fc_ft_flex_Ec_Cl28_Cl90_Cl180_Shrink7_Shrink28_Shrink90_Shrink120_Creep28_Creep90_Creep150_Abr28.csv
 Cement(kg/m3), Water(kg/m3),Coarse aggregate(kg/m3),Fine aggregate(kg/m3), FA (kg/m3),SF (kg/m3),GGBFS (kg/m3),SP (kg/m3),Cylinder compressive strength (MPa),Splitting tensile strength (MPa),Flexural strength (MPa),Elastic modulus (GPa),Chloride permeability (Coulomb) 28d,Chloride permeability (Coulomb) 90d,Chloride permeability (Coulomb) 180d,Drying shrinkage (??) 7d,Drying shrinkage (??) 28d,Drying shrinkage (??) 90d,Drying shrinkage (??)120d,Creep (??) 28d,Creep (??) 90d,Creep (??) 150d,Abrasion (mm) 28 d
300,150,1097,673,200,0,0,4.5,52.7,2.52,-1,-1,-1,-1,-1,-1,-1,-1,-1,-1,-1,-1,-1
41.5,168,820,932,0,0,373.5,1.69,37.9,-1,-1,-1,-1,-1,-1,-1,-1,-1,-1,-1,-1,-1,-1
130,206.7,849.4,785,390,0,0,5.94,6.09,-1,-1,-1,-1,-1,-1,-1,-1,-1,-1,-1,-1,-1,-1
290,163,1048,670,72.5,0,0,0,37,-1,-1,-1,-1,-1,-1,-1,-1,-1,-1,-1,-1,-1,-1
235.62,163,1048,670,0,0,126.88,0,39.5,3.91,-1,-1,-1,-1,-1,-1,-1,-1,-1,-1,-1,-1,-1
400,200,771,870,0,54.5,0,8,64,-1,-1,-1,560,408,-1,-1,-1,-1,-1,-1,-1,-1,-1
228,182,1100,770,0,68,159,2.8,58,4.9,-1,26.8,-1,-1,-1,-1,-1,-1,-1,-1,-1,-1,-1
468,132,1136,612,0,83,0,8.3,85,-1,-1,-1,-1,-1,-1,-1,-1,-1,-1,-1,-1,-1,-1
450,149,1168,615,0,45,0,3.7,84.2,-1,-1,-1,-1,-1,-1,-1,-1,-1,-1,-1,-1,-1,-1
425,170,1100,640,0,75,0,17.5,64.01,5.75,9.75,-1,-1,-1,-1,-1,-1,-1,-1,-1,-1,-1,-1
360,201.6,1058,616,0,120,0,16.8,54.23,4.51,8.34,-1,-1,-1,-1,-1,-1,-1,-1,-1,-1,-1,-1
250,192.8,948.9,857.2,124.8,0,0,5.3,28.21,-1,-1,-1,-1,-1,-1,-1,-1,-1,-1,-1,-1,-1,-1
148,158.4,1002,830,124.8,0,0,16,19.95,-1,-1,-1,-1,-1,-1,-1,-1,-1,-1,-1,-1,-1,-1
355.9,196.3,801.4,769,124.5,0,0,11,36.27,-1,-1,-1,-1,-1,-1,-1,-1,-1,-1,-1,-1,-1,-1
425,180,999,710,0,75,0,1.25,55.51,-1,-1,-1,-1,-1,-1,-1,-1,-1,-1,-1,-1,-1,-1
309.9,167.8,913.9,651.2,111.2,0,142.8,22.1,38.22,-1,-1,-1,-1,-1,-1,-1,-1,-1,-1,-1,-1,-1,-1
446,162,967,712,79,0,24,11.6,44.42,-1,-1,-1,-1,-1,-1,-1,-1,-1,-1,-1,-1,-1,-1
162,178.8,838.1,741.4,148.1,0,190.1,18.8,33.76,-1,-1,-1,-1,-1,-1,-1,-1,-1,-1,-1,-1,-1,-1
168,121.8,1058.7,780.1,163.8,0,42.1,5.7,24.24,-1,-1,-1,-1,-1,-1,-1,-1,-1,-1,-1,-1,-1,-1
145,184,833,880,119,0,116,5.7,29.16,-1,-1,-1,-1,-1,-1,-1,-1,-1,-1,-1,-1,-1,-1
160.2,203.2,828.7,709.7,146.4,0,188,11.3,35.31,-1,-1,-1,-1,-1,-1,-1,-1,-1,-1,-1,-1,-1,-1
148.5,192.7,892.4,780,108.6,0,139.4,6.1,23.7,-1,-1,-1,-1,-1,-1,-1,-1,-1,-1,-1,-1,-1,-1
141.9,173.5,882.6,785.3,129.7,0,166.6,10.9,44.61,-1,-1,-1,-1,-1,-1,-1,-1,-1,-1,-1,-1,-1,-1
154,220,923,658,112,0,144,10,16.5,-1,-1,-1,-1,-1,-1,-1,-1,-1,-1,-1,-1,-1,-1
330,181.5,722,970,192.5,27.5,0,1.21,38.34,-1,-1,-1,-1,-1,-1,-1,-1,-1,-1,-1,-1,-1,-1
434,235.6,720,780,186,0,0,4,44.71,-1,-1,-1,-1,-1,-1,-1,-1,-1,-1,-1,-1,-1,-1
540,180,595,1059,0,60,0,8.58,85.43,-1,-1,-1,380,-1,-1,-1,-1,-1,-1,-1,-1,-1,-1
206,180,621,1001,283,26,0,1.6448,48.79,-1,-1,-1,1450,-1,-1,-1,-1,-1,-1,-1,-1,-1,-1
225,180,640,1072,180,45,0,2.88,51.26,-1,-1,-1,1000,-1,-1,-1,-1,-1,-1,-1,-1,-1,-1
355,241.6,590,910,195,0,0,9.91,25.18,1.55,-1,-1,-1,610,-1,-1,-1,-1,-1,-1,-1,-1,-1
440,176,927,721,0,27.5,82.5,9.78,67.66,-1,-1,-1,-1,-1,-1,275,410,-1,-1,-1,-1,-1,-1
180,198,860,819,0,0,270,2.8,47.77,-1,-1,-1,-1,-1,-1,220,375,-1,-1,-1,-1,-1,-1
360,198,859,817,33.75,22.5,33.75,4.2,51.51,-1,-1,-1,-1,-1,-1,156,400,-1,-1,-1,-1,-1,-1
270,198,841,801,135,45,0,4.5,57.6,-1,-1,-1,-1,585,-1,177,-1,-1,-1,-1,-1,-1,-1
300,165,723,825,300,0,0,20.4,34.5,3.8,-1,23.5,-1,-1,-1,-1,-1,-1,-1,-1,-1,-1,-1
440,137.28,1028,630,44,44,0,7.92,74.1,-1,-1,-1,-1,-1,-1,-1,-1,-1,-1,-1,-1,-1,-1
231,119,1047,852,156,0,0,3.2,55.3,-1,-1,-1,-1,-1,-1,-1,-1,-1,-1,-1,-1,-1,1.18
120,112,1200,600,280,0,0,5.6,36.63,2.88,4.38,-1,-1,-1,-1,-1,-1,-1,-1,-1,-1,-1,-1
320,136,1270,628,80,0,0,2,44.54,-1,5.17,-1,-1,-1,-1,-1,597,-1,-1,-1,-1,-1,-1
282,159.8,1056,704,188,0,0,0,44.7,-1,-1,-1,-1,-1,-1,290,278,350,365,-1,-1,-1,-1
411,140,1018,839,0,27,0,9.636,62.34,-1,-1,-1,-1,-1,-1,-1,-1,-1,-1,-1,-1,-1,-1
375,159.77,1046,863,0,68.8056,0,9.76372,67.1585,-1,-1,-1,-1,-1,-1,-1,-1,-1,-1,-1,-1,-1,-1
347,204,785,908,129,39,0,10.3,34.09,3.82,5.2,27,450,-1,-1,-1,-1,-1,-1,-1,-1,-1,-1
635,247,565,847,0,71,0,2.54,60.35,-1,9.8,-1,-1,-1,-1,420,505,560,-1,-1,-1,-1,-1
465.5,186.2,1078,628,24.5,0,0,14.7,36.12,-1,6.16,-1,-1,-1,-1,-1,-1,-1,-1,-1,-1,-1,-1
322,161,1085.2,693.81,138,0,0,1.104,51,4.5,-1,27.9,-1,-1,-1,160,310,-1,-1,-1,-1,-1,-1
280,175,1132,680,0,0,70,0,28.016,-1,-1,-1,-1,-1,-1,69,123,200,220,348,470,390,-1
400,210,699.3,890.2,0,100,0,1.5,56.46,-1,6.83,-1,-1,-1,-1,-1,-1,-1,-1,-1,-1,-1,-1
300,190,735,910,200,0,0,6.75,38.25,-1,-1,-1,-1,-1,-1,-1,-1,-1,-1,-1,-1,-1,-1
245,85.75,1035,740,52.5,0,52.5,6.3,33.07,-1,-1,-1,-1,-1,-1,-1,-1,-1,-1,-1,-1,-1,-1
350,180,927,678,100,0,0,6.8,48.87,-1,-1,28.5,-1,-1,-1,-1,-1,-1,-1,-1,-1,-1,-1
440,209,635.5,748,110,0,0,9.35,42.5,2.86,-1,-1,-1,-1,-1,-1,-1,-1,-1,-1,-1,-1,-1
237.75,190,1396,698,63.4,15.85,0,0,16.38,-1,-1,-1,-1,-1,-1,-1,-1,-1,-1,-1,-1,-1,-1
316.2,158,1029,686,158.1,52.7,0,10.54,49.72,-1,-1,-1,-1,-1,-1,-1,-1,-1,-1,-1,-1,-1,-1
219.96,160,1270,605,169.2,33.84,169.2,3.6,40.596,3.19,4.8,-1,-1,-1,-1,-1,-1,-1,-1,-1,-1,-1,-1
357,135.66,873,873,0,0,63,2.016,52.7,-1,-1,-1,6100,3990,2800,-1,-1,-1,-1,-1,-1,-1,-1
144,129,1115,770,127,0,16,2.296,33.5,3.2,-1,-1,5070,4250,-1,-1,-1,-1,-1,-1,-1,-1,-1
320,152,1097,731.2,0,0,80,0,51.85,4.41,9,45.62,-1,-1,-1,-1,-1,-1,-1,-1,-1,-1,-1
463.63,185.45,791.46,879.87,0,51.514,0,11.3332,61.58,-1,-1,-1,-1,-1,-1,-1,-1,-1,-1,-1,-1,-1,-1
430.14,185.45,746.81,830.23,84.9981,0,0,11.333,46.55,-1,-1,-1,-1,-1,-1,-1,-1,-1,-1,-1,-1,-1,-1
363.17,185.45,710.51,789.88,141.6635,10.3028,0,11.333,55.04,-1,-1,-1,-1,-1,-1,-1,-1,-1,-1,-1,-1,-1,-1
296.21,185.45,674.21,749.52,198.3289,20.6056,0,11.3332,51.91,-1,-1,-1,-1,-1,-1,-1,-1,-1,-1,-1,-1,-1,-1
200.9,185.45,620.51,689.83,283.327,30.9084,0,11.333,47.19,-1,-1,-1,-1,-1,-1,-1,-1,-1,-1,-1,-1,-1,-1
354,155,1048,708,0,133,0,0,53.55,-1,-1,-1,-1,-1,-1,-1,-1,-1,-1,-1,-1,-1,-1
390.3,158,1151,647,74.1,29.6,0,4.94,57.29,5.79,-1,-1,-1,-1,-1,-1,-1,-1,-1,-1,-1,-1,-1
213.75,190,732.2,949.4,47.5,23.75,190,1.425,39.5,-1,-1,-1,-1,-1,-1,-1,-1,-1,-1,-1,-1,-1,-1
130.625,190,724.3,939.2,71.25,35.625,237.5,1.6625,32.9,-1,-1,-1,-1,-1,-1,-1,-1,-1,-1,-1,-1,-1,-1
249.375,190,685.2,905.9,71.25,11.875,142.5,1.1875,34.25,3.35,7.26,-1,415,-1,-1,-1,-1,-1,-1,-1,-1,-1,-1
138,208.2,990,660,92,46,184,1.84,38.1,2.89,4.83,25,-1,-1,-1,-1,-1,-1,-1,-1,-1,-1,-1
248,173.46,1172,781,165,0,0,1.45,36.55,3.42,4.65,34.4,-1,-1,-1,-1,-1,-1,-1,-1,-1,-1,-1
340,121,1205,739,102,10.2,0,4.2,72.25,-1,-1,-1,-1,-1,-1,-1,-1,-1,-1,-1,-1,-1,-1
379.2,168,820,807,0,0,94.8,1.69,85,-1,-1,-1,-1,-1,-1,-1,-1,-1,-1,-1,-1,-1,-1
357,178.5,915,865,0,0,153,4.5,46.5,3.85,-1,29.8,-1,-1,-1,-1,-1,-1,-1,-1,-1,-1,-1
666,152,1085,515,0,74,0,8.88,107.27,7.22,8.23,-1,385,-1,-1,-1,-1,-1,-1,-1,-1,-1,-1
227.5,140,1314.2,744.3,0,52.5,70,3.5,31.246,4.1,-1,-1,-1,-1,-1,-1,-1,-1,-1,-1,-1,-1,-1
499.7,185.5,776.1,862.8,15.453,0,0,11.3334,44.625,4,-1,-1,1330,-1,-1,-1,-1,-1,-1,-1,-1,-1,-1
419.8,185.5,745.3,828.6,84.9915,10.302,0,11.3321,54.0005,-1,-1,-1,-1,-1,-1,-1,-1,-1,-1,-1,-1,-1,-1
352.9,185.5,709,788.2,141.6525,20.604,0,11.3334,56.9245,-1,-1,-1,-1,-1,-1,-1,-1,-1,-1,-1,-1,-1,-1
285.9,185.5,672.7,747.8,198.3135,30.906,0,11.3326,52.4195,-1,-1,-1,-1,-1,-1,-1,-1,-1,-1,-1,-1,-1,-1
190.6,185.5,619,688.2,283.305,41.208,0,11.3325,47.7445,-1,-1,-1,-1,-1,-1,-1,-1,-1,-1,-1,-1,-1,-1
324,260.9,825,631,0,23,116,0,31.705,2.84,-1,-1,-1,-1,-1,-1,-1,-1,-1,-1,-1,-1,-1
348.75,200,737,937.5,116.25,0,0,3.72,36.21,3.63,4.8,-1,-1,-1,-1,-1,-1,-1,-1,-1,-1,-1,-1
257,216.8,754,800,256,0,0,4.1,15.572,-1,-1,-1,-1,-1,-1,-1,-1,-1,-1,-1,-1,-1,-1
260,214.9,832,785,130,0,130,5.67,32.623,-1,-1,-1,-1,-1,-1,-1,-1,-1,-1,-1,-1,-1,-1
269.45,148.99,1268,634,0,47.55,0,0,26.35,3.3,-1,-1,-1,-1,-1,-1,-1,-1,-1,-1,-1,-1,-1
280,180,861,932,80,20,0,0,26.435,2.36,-1,27,2700,1400,-1,-1,-1,-1,-1,-1,-1,-1,-1
368,155,1057,772,0,19,0,0,63.9,4.3,-1,30.2,-1,-1,-1,-1,-1,-1,-1,-1,-1,-1,-1
277,155,1016,628,111,28,138,0,73.7,4.8,-1,34.6,-1,-1,-1,-1,-1,-1,-1,-1,-1,-1,-1
322,200.48,1228,611,36,0,0,0,35.275,-1,-1,-1,-1,-1,-1,-1,-1,-1,-1,-1,-1,-1,-1
378,159.6,869,869,0,42,0,2.352,68,-1,-1,-1,1250,720,450,-1,-1,-1,-1,-1,-1,-1,-1
340,188,800,825,0,0,135,6.1275,36.55,-1,-1,-1,-1,-1,-1,-1,-1,-1,-1,-1,-1,-1,-1
406,189,784.4,987.1,0,22,22,1.57,40.2,3.74,4.88,34.78,450,-1,-1,-1,-1,-1,-1,-1,-1,-1,-1
135,189,646.6,973.3,0,45,270,2.02,23.5,2,3.11,25.8,230,-1,-1,-1,-1,-1,-1,-1,-1,-1,-1
408.1,191.232,1235,523,0,14.6,174.9,4.5,62.475,-1,-1,-1,-1,-1,-1,-1,-1,-1,-1,-1,-1,-1,-1
408.1,195.904,1235,523,58.3,29.2,116.6,4.6,57.8,-1,-1,-1,-1,-1,-1,-1,-1,-1,-1,-1,-1,-1,-1
530.7,239.776,1235,523,174.9,43.7,0,4.7,62.475,-1,-1,-1,-1,-1,-1,-1,-1,-1,-1,-1,-1,-1,-1
466.4,209.888,1235,523,0,72.9,116.6,5.76,65.45,-1,-1,-1,-1,-1,-1,-1,-1,-1,-1,-1,-1,-1,-1
330,176,928,722,0,0,220,10,68.085,-1,-1,-1,-1,-1,-1,-1,-1,-1,-1,-1,-1,-1,-1
220,176,903,703,165,0,165,4.44,58.905,-1,-1,-1,-1,-1,-1,-1,-1,-1,-1,-1,-1,-1,-1
290,170,1035,697,0,0,125,2.9,47.1,-1,-1,33.3,-1,-1,-1,-1,-1,-1,-1,-1,-1,-1,-1
175,218,1109,731,0,0,75,0,19.975,-1,-1,-1,-1,-1,-1,-1,-1,-1,-1,-1,-1,-1,-1
245,239,982,647,0,0,175,0,35.19,-1,-1,-1,-1,-1,-1,-1,-1,-1,-1,-1,-1,-1,-1
252,183.6,1108,673.5,0,0,108,0,31.0845,-1,-1,-1,-1,-1,-1,-1,-1,-1,-1,-1,-1,-1,-1
459,156.06,817.56,828.36,0,0,81,4.32,51,-1,-1,-1,-1,-1,-1,-1,-1,-1,-1,-1,-1,-1,-1
234,195,1200,710,0,0,142,0,28.6875,2.9,3.66,-1,-1,-1,-1,-1,-1,-1,-1,-1,-1,-1,-1
360,203,1040,482,0,0,90,4.95,28.7,2.95,-1,12.5,-1,-1,-1,-1,-1,-1,-1,-1,-1,-1,-1
427.5,157.5,1105.5,737,0,22.5,0,3.2,54,-1,-1,-1,-1,-1,-1,-1,-1,-1,-1,-1,-1,-1,-1
360,126,1125,675,0,0,90,14,81.005,-1,-1,45.04,-1,-1,-1,-1,-1,-1,-1,-1,-1,-1,-1
135,135,875,875,0,0,315,1,66.85,-1,-1,-1,-1,-1,-1,-1,-1,-1,-1,-1,-1,-1,-1
380,214,1212,520,0,47.5,47.5,0,43.6135,-1,-1,-1,-1,-1,-1,-1,-1,-1,-1,-1,-1,-1,-1
275,137.5,824,824,275,0,0,19.5,44.2,-1,-1,-1,-1,-1,-1,-1,-1,-1,-1,-1,-1,-1,-1
220,137.5,766,766,165,0,165,17.9,55.25,-1,-1,-1,-1,-1,-1,-1,-1,-1,-1,-1,-1,-1,-1
243,135.8,974,1087,0,58,184,14.55,61.2,-1,10.2,-1,-1,-1,-1,-1,-1,-1,-1,-1,-1,-1,-1
,,,,,,,,,,,,,,,,,,,,,,
,,,,,,,,,,,,,,,,,,,,,,
,,,,,,,,,,,,,,,,,,,,,,
,,,,,,,,,,,,,,,,,,,,,,
,,,,,,,,,,,,,,,,,,,,,,
,,,,,,,,,,,,,,,,,,,,,,

File: SCM.csv
 Cement(kg/m3), Water(kg/m3),Coarse aggregate(kg/m3),Fine aggregate(kg/m3), FA (kg/m3),SF (kg/m3),GGBFS (kg/m3),SP (kg/m3),Cylinder compressive strength (MPa),Splitting tensile strength (MPa),Flexural strength (MPa),Elastic modulus (GPa),Chloride permeability (Coulomb) 28d,Chloride permeability (Coulomb) 90d,Chloride permeability (Coulomb) 180d,Drying shrinkage (??) 7d,Drying shrinkage (??) 28d,Drying shrinkage (??) 90d,Drying shrinkage (??)120d,Creep (??) 28d,Creep (??) 90d,Creep (??) 150d,Abrasion (mm) 28 d
300.0,150.0,1097.0,673.0,200.0,0.0,0.0,4.5,52.7,2.52,-1.0,-1.0,-1.0,-1.0,-1.0,-1.0,-1.0,-1.0,-1.0,-1.0,-1.0,-1.0,-1.0
83.0,168.0,820.0,932.0,166.0,0.0,166.0,1.69,41.4,-1.0,-1.0,41.5,-1.0,-1.0,-1.0,-1.0,-1.0,-1.0,-1.0,-1.0,-1.0,-1.0,-1.0
290.0,163.0,1048.0,670.0,72.5,0.0,0.0,0.0,36.0,-1.0,-1.0,-1.0,-1.0,-1.0,-1.0,-1.0,-1.0,-1.0,-1.0,-1.0,-1.0,-1.0,-1.0
253.75,163.0,1048.0,670.0,90.62,18.12,0.0,0.0,31.0,-1.0,-1.0,-1.0,-1.0,-1.0,-1.0,-1.0,-1.0,-1.0,-1.0,-1.0,-1.0,-1.0,-1.0
209.5,200.0,761.0,858.0,163.5,0.0,81.5,4.31,35.8,-1.0,-1.0,-1.0,4204.0,660.0,-1.0,-1.0,-1.0,-1.0,-1.0,-1.0,-1.0,-1.0,-1.0
449.0,142.0,1155.0,622.0,0.0,50.0,0.0,5.0,68.0,-1.0,-1.0,-1.0,-1.0,-1.0,-1.0,-1.0,-1.0,-1.0,-1.0,-1.0,-1.0,-1.0,-1.0
416.0,135.2,1146.0,667.0,0.0,104.0,0.0,18.2,79.9,6.51,11.1,-1.0,-1.0,-1.0,-1.0,-1.0,-1.0,-1.0,-1.0,-1.0,-1.0,-1.0,-1.0
456.0,201.6,1058.0,616.0,0.0,24.0,0.0,16.8,42.67,4.4,6.8,-1.0,-1.0,-1.0,-1.0,-1.0,-1.0,-1.0,-1.0,-1.0,-1.0,-1.0,-1.0
213.5,159.2,1043.6,771.9,124.8,0.0,0.0,11.7,44.61,-1.0,-1.0,-1.0,-1.0,-1.0,-1.0,-1.0,-1.0,-1.0,-1.0,-1.0,-1.0,-1.0,-1.0
276.4,217.4,897.7,712.9,124.8,0.0,0.0,11.0,9.55,-1.0,-1.0,-1.0,-1.0,-1.0,-1.0,-1.0,-1.0,-1.0,-1.0,-1.0,-1.0,-1.0,-1.0
375.0,180.0,876.0,860.0,100.0,25.0,0.0,1.0,55.42,-1.0,-1.0,-1.0,-1.0,-1.0,-1.0,-1.0,-1.0,-1.0,-1.0,-1.0,-1.0,-1.0,-1.0
397.0,167.0,967.0,633.0,158.0,0.0,17.2,20.8,55.65,-1.0,-1.0,-1.0,-1.0,-1.0,-1.0,-1.0,-1.0,-1.0,-1.0,-1.0,-1.0,-1.0,-1.0
144.0,192.0,814.0,805.0,133.0,0.0,170.0,8.0,29.87,-1.0,-1.0,-1.0,-1.0,-1.0,-1.0,-1.0,-1.0,-1.0,-1.0,-1.0,-1.0,-1.0,-1.0
168.0,121.8,1058.7,780.1,163.8,0.0,42.1,5.7,24.24,-1.0,-1.0,-1.0,-1.0,-1.0,-1.0,-1.0,-1.0,-1.0,-1.0,-1.0,-1.0,-1.0,-1.0
144.0,178.0,941.0,774.0,106.0,0.0,136.0,7.0,26.14,-1.0,-1.0,-1.0,-1.0,-1.0,-1.0,-1.0,-1.0,-1.0,-1.0,-1.0,-1.0,-1.0,-1.0
168.9,158.3,1080.8,796.2,124.3,0.0,42.2,10.8,31.12,-1.0,-1.0,-1.0,-1.0,-1.0,-1.0,-1.0,-1.0,-1.0,-1.0,-1.0,-1.0,-1.0,-1.0
314.0,179.0,869.0,690.0,113.0,0.0,145.0,8.0,46.23,-1.0,-1.0,-1.0,-1.0,-1.0,-1.0,-1.0,-1.0,-1.0,-1.0,-1.0,-1.0,-1.0,-1.0
140.0,200.0,916.0,753.0,103.0,0.0,133.0,7.0,36.44,-1.0,-1.0,-1.0,-1.0,-1.0,-1.0,-1.0,-1.0,-1.0,-1.0,-1.0,-1.0,-1.0,-1.0
496.0,235.6,720.0,780.0,124.0,0.0,0.0,4.0,46.22,-1.0,-1.0,-1.0,-1.0,-1.0,-1.0,-1.0,-1.0,-1.0,-1.0,-1.0,-1.0,-1.0,-1.0
300.0,180.0,595.0,958.0,240.0,60.0,0.0,3.6,72.42,-1.0,-1.0,-1.0,500.0,-1.0,-1.0,-1.0,-1.0,-1.0,-1.0,-1.0,-1.0,-1.0,-1.0
405.0,180.0,640.0,1147.0,0.0,45.0,0.0,9.45,67.15,-1.0,-1.0,-1.0,750.0,-1.0,-1.0,-1.0,-1.0,-1.0,-1.0,-1.0,-1.0,-1.0,-1.0
440.0,176.0,917.0,714.0,110.0,0.0,0.0,7.43,59.33,-1.0,-1.0,-1.0,-1.0,-1.0,-1.0,205.0,360.0,-1.0,-1.0,-1.0,-1.0,-1.0,-1.0
440.0,176.0,924.0,720.0,41.25,27.5,41.25,8.0,66.81,-1.0,-1.0,-1.0,-1.0,-1.0,-1.0,275.0,390.0,-1.0,-1.0,-1.0,-1.0,-1.0,-1.0
270.0,198.0,852.0,811.0,90.0,0.0,90.0,3.2,45.56,-1.0,-1.0,-1.0,-1.0,-1.0,-1.0,-1.0,-1.0,-1.0,-1.0,-1.0,-1.0,-1.0,-1.0
270.0,198.0,857.0,816.0,0.0,45.0,135.0,4.6,68.2,-1.0,-1.0,-1.0,-1.0,408.0,-1.0,199.0,-1.0,-1.0,-1.0,-1.0,-1.0,-1.0,-1.0
420.0,168.0,1082.0,663.0,0.0,21.0,0.0,4.2,61.18,-1.0,-1.0,31.759,-1.0,-1.0,-1.0,-1.0,-1.0,-1.0,-1.0,-1.0,-1.0,-1.0,-1.0
231.0,119.0,1047.0,852.0,156.0,0.0,0.0,3.2,55.3,-1.0,-1.0,-1.0,-1.0,-1.0,-1.0,-1.0,-1.0,-1.0,-1.0,-1.0,-1.0,-1.0,1.18
120.0,160.0,1200.0,600.0,280.0,0.0,0.0,0.0,19.5,2.04,3.43,-1.0,-1.0,-1.0,-1.0,-1.0,-1.0,-1.0,-1.0,-1.0,-1.0,-1.0,-1.0
423.0,159.8,1056.0,704.0,47.0,0.0,0.0,0.0,46.32,-1.0,-1.0,-1.0,-1.0,-1.0,-1.0,240.0,350.0,449.0,467.0,-1.0,-1.0,-1.0,-1.0
347.0,140.0,1053.0,868.0,0.0,23.0,0.0,8.14,59.0,-1.0,-1.0,-1.0,-1.0,-1.0,-1.0,-1.0,-1.0,-1.0,-1.0,-1.0,-1.0,-1.0,-1.0
398.0,204.0,785.0,908.0,77.0,39.0,0.0,10.28,35.7,4.0,6.0,28.0,678.0,-1.0,-1.0,-1.0,-1.0,-1.0,-1.0,-1.0,-1.0,-1.0,-1.0
635.0,247.0,565.0,847.0,0.0,71.0,0.0,2.54,62.22,-1.0,10.0,-1.0,-1.0,-1.0,-1.0,400.0,480.0,526.0,-1.0,-1.0,-1.0,-1.0,-1.0
367.5,186.2,1078.0,628.0,122.5,0.0,0.0,14.7,29.72,-1.0,5.2,-1.0,-1.0,-1.0,-1.0,-1.0,-1.0,-1.0,-1.0,-1.0,-1.0,-1.0,-1.0
300.0,194.0,825.0,761.0,158.0,0.0,0.0,4.3,25.75,1.45,2.89,-1.0,-1.0,-1.0,-1.0,-1.0,-1.0,-1.0,-1.0,-1.0,-1.0,-1.0,-1.0
450.0,210.0,706.3,898.6,0.0,50.0,0.0,1.7,60.57,-1.0,7.07,-1.0,-1.0,-1.0,-1.0,-1.0,-1.0,-1.0,-1.0,-1.0,-1.0,-1.0,-1.0
297.5,104.125,1035.0,740.0,0.0,52.5,0.0,6.3,53.77,-1.0,-1.0,-1.0,-1.0,-1.0,-1.0,-1.0,-1.0,-1.0,-1.0,-1.0,-1.0,-1.0,-1.0
350.0,153.0,966.0,706.0,100.0,0.0,0.0,9.5,48.96,-1.0,-1.0,37.0,-1.0,-1.0,-1.0,-1.0,-1.0,-1.0,-1.0,-1.0,-1.0,-1.0,-1.0
200.0,90.0,1014.0,774.0,0.0,0.0,200.0,1.4,57.8,-1.0,-1.0,-1.0,1049.0,-1.0,-1.0,-1.0,-1.0,-1.0,-1.0,-1.0,-1.0,-1.0,-1.0
474.3,158.0,1029.0,686.0,0.0,52.7,0.0,10.54,76.67,-1.0,-1.0,-1.0,-1.0,-1.0,-1.0,-1.0,-1.0,-1.0,-1.0,-1.0,-1.0,-1.0,-1.0
219.96,160.0,1270.0,605.0,169.2,33.84,169.2,3.6,40.596,3.19,4.8,-1.0,-1.0,-1.0,-1.0,-1.0,-1.0,-1.0,-1.0,-1.0,-1.0,-1.0,-1.0
325.5,123.69,868.0,868.0,0.0,31.5,63.0,2.016,57.8,-1.0,-1.0,-1.0,2285.0,800.0,800.0,-1.0,-1.0,-1.0,-1.0,-1.0,-1.0,-1.0,-1.0
320.0,152.0,1097.0,731.2,80.0,0.0,0.0,0.0,36.55,5.35,8.35,-1.0,-1.0,-1.0,-1.0,-1.0,-1.0,-1.0,-1.0,-1.0,-1.0,-1.0,-1.0
489.38,185.45,774.62,861.15,15.4542,10.3028,0.0,11.333,51.66,-1.0,-1.0,-1.0,-1.0,-1.0,-1.0,-1.0,-1.0,-1.0,-1.0,-1.0,-1.0,-1.0,-1.0
391.51,185.45,727.9,809.22,113.3308,10.3028,0.0,11.3332,54.19,-1.0,-1.0,-1.0,-1.0,-1.0,-1.0,-1.0,-1.0,-1.0,-1.0,-1.0,-1.0,-1.0,-1.0
306.51,185.45,675.71,751.2,198.3289,10.3028,0.0,11.3331,51.41,-1.0,-1.0,-1.0,-1.0,-1.0,-1.0,-1.0,-1.0,-1.0,-1.0,-1.0,-1.0,-1.0,-1.0
248.0,226.24,806.0,853.0,248.0,0.0,0.0,5.0,22.81,-1.0,-1.0,27.89,-1.0,-1.0,-1.0,-1.0,340.0,475.0,495.0,277.64,-1.0,-1.0,-1.0
464.4,158.0,1151.0,647.0,0.0,29.6,0.0,4.94,54.99,5.76,-1.0,-1.0,-1.0,-1.0,-1.0,-1.0,-1.0,-1.0,-1.0,-1.0,-1.0,-1.0,-1.0
166.25,190.0,730.1,946.8,47.5,23.75,237.5,1.425,35.0,-1.0,-1.0,-1.0,-1.0,-1.0,-1.0,-1.0,-1.0,-1.0,-1.0,-1.0,-1.0,-1.0,-1.0
225.625,190.0,752.5,937.1,47.5,11.875,190.0,1.1875,30.89,3.18,6.89,-1.0,255.0,-1.0,-1.0,-1.0,-1.0,-1.0,-1.0,-1.0,-1.0,-1.0,-1.0
138.0,200.7,1048.0,660.0,92.0,46.0,184.0,1.84,42.2,3.05,4.78,29.0,-1.0,-1.0,-1.0,-1.0,-1.0,-1.0,-1.0,-1.0,-1.0,-1.0,-1.0
267.0,186.9,1307.0,637.0,178.0,0.0,0.0,1.11,34.85,3.3,4.5,33.75,-1.0,-1.0,-1.0,-1.0,-1.0,-1.0,-1.0,-1.0,-1.0,-1.0,-1.0
94.8,168.0,820.0,807.0,379.2,0.0,0.0,1.69,32.0,-1.0,-1.0,-1.0,-1.0,-1.0,-1.0,-1.0,-1.0,-1.0,-1.0,-1.0,-1.0,-1.0,-1.0
357.0,178.5,915.0,865.0,0.0,0.0,153.0,4.5,46.5,3.85,-1.0,29.8,-1.0,-1.0,-1.0,-1.0,-1.0,-1.0,-1.0,-1.0,-1.0,-1.0,-1.0
503.0,151.0,1075.0,510.0,0.0,89.0,148.0,8.88,117.64,7.94,12.15,-1.0,325.0,-1.0,-1.0,-1.0,-1.0,-1.0,-1.0,-1.0,-1.0,-1.0,-1.0
484.2,185.5,794.5,883.2,0.0,30.906,0.0,11.3323,60.9025,4.99,-1.0,-1.0,1030.0,-1.0,-1.0,-1.0,-1.0,-1.0,-1.0,-1.0,-1.0,-1.0,-1.0
399.2,185.5,742.3,825.2,84.9915,30.906,0.0,11.3321,55.981,-1.0,-1.0,-1.0,-1.0,-1.0,-1.0,-1.0,-1.0,-1.0,-1.0,-1.0,-1.0,-1.0,-1.0
314.2,185.5,690.1,767.2,169.983,30.906,0.0,11.332,56.0575,-1.0,-1.0,-1.0,-1.0,-1.0,-1.0,-1.0,-1.0,-1.0,-1.0,-1.0,-1.0,-1.0,-1.0
200.9,185.5,620.5,689.8,283.305,30.906,0.0,11.3324,47.192,-1.0,-1.0,-1.0,-1.0,-1.0,-1.0,-1.0,-1.0,-1.0,-1.0,-1.0,-1.0,-1.0,-1.0
300.7,271.7,813.0,631.0,0.0,46.3,116.0,0.0,31.535,-1.0,-1.0,-1.0,-1.0,-1.0,-1.0,-1.0,-1.0,-1.0,-1.0,-1.0,-1.0,-1.0,-1.0
348.75,200.0,737.0,937.5,69.75,47.7,0.0,3.72,39.1,3.97,4.9,-1.0,-1.0,-1.0,-1.0,-1.0,-1.0,-1.0,-1.0,-1.0,-1.0,-1.0,-1.0
260.0,214.9,832.0,785.0,104.0,52.0,104.0,6.86,42.024,-1.0,-1.0,-1.0,-1.0,-1.0,-1.0,-1.0,-1.0,-1.0,-1.0,-1.0,-1.0,-1.0,-1.0
269.45,148.99,1268.0,634.0,23.78,23.78,0.0,0.0,28.9,3.75,-1.0,-1.0,-1.0,-1.0,-1.0,-1.0,-1.0,-1.0,-1.0,-1.0,-1.0,-1.0,-1.0
324.0,162.0,1027.0,750.0,81.0,0.0,0.0,0.0,44.6,3.5,-1.0,26.3,-1.0,-1.0,-1.0,-1.0,-1.0,-1.0,-1.0,-1.0,-1.0,-1.0,-1.0
137.0,155.0,1083.0,670.0,0.0,28.0,296.0,0.0,72.5,4.9,-1.0,30.7,-1.0,-1.0,-1.0,-1.0,-1.0,-1.0,-1.0,-1.0,-1.0,-1.0,-1.0
300.0,200.0,860.0,845.0,200.0,0.0,0.0,9.0,22.1,1.7,-1.0,13.0,1240.0,-1.0,-1.0,-1.0,-1.0,-1.0,-1.0,-1.0,-1.0,-1.0,-1.0
340.0,188.0,800.0,825.0,0.0,0.0,135.0,6.1275,36.55,-1.0,-1.0,-1.0,-1.0,-1.0,-1.0,-1.0,-1.0,-1.0,-1.0,-1.0,-1.0,-1.0,-1.0
315.0,189.0,651.7,981.2,0.0,45.0,90.0,1.8,36.0,3.75,4.25,33.2,397.0,-1.0,-1.0,-1.0,-1.0,-1.0,-1.0,-1.0,-1.0,-1.0,-1.0
583.0,191.232,1235.0,523.0,0.0,14.6,0.0,4.3,64.6,-1.0,-1.0,-1.0,-1.0,-1.0,-1.0,-1.0,-1.0,-1.0,-1.0,-1.0,-1.0,-1.0,-1.0
466.4,214.56,1235.0,523.0,116.6,29.2,58.3,4.27,58.65,-1.0,-1.0,-1.0,-1.0,-1.0,-1.0,-1.0,-1.0,-1.0,-1.0,-1.0,-1.0,-1.0,-1.0
408.1,205.216,1235.0,523.0,58.3,58.3,116.6,5.26,58.65,-1.0,-1.0,-1.0,-1.0,-1.0,-1.0,-1.0,-1.0,-1.0,-1.0,-1.0,-1.0,-1.0,-1.0
440.0,176.0,931.0,725.0,0.0,0.0,110.0,10.43,63.835,-1.0,-1.0,-1.0,-1.0,-1.0,-1.0,-1.0,-1.0,-1.0,-1.0,-1.0,-1.0,-1.0,-1.0
125.0,172.0,1100.0,880.0,62.5,0.0,62.5,5.0,40.1,-1.0,-1.0,-1.0,-1.0,-1.0,-1.0,-1.0,-1.0,-1.0,-1.0,-1.0,-1.0,-1.0,-1.0
270.0,171.0,808.0,1204.0,0.0,0.0,180.0,0.0,70.0,-1.0,-1.0,-1.0,-1.0,-1.0,-1.0,-1.0,-1.0,-1.0,-1.0,-1.0,-1.0,-1.0,-1.0
245.0,250.0,924.0,609.0,0.0,0.0,245.0,0.0,35.955,-1.0,-1.0,-1.0,-1.0,-1.0,-1.0,-1.0,-1.0,-1.0,-1.0,-1.0,-1.0,-1.0,-1.0
219.06,197.1,1139.1,657.19,0.0,46.58,199.15,0.0,28.8,3.43,6.28,-1.0,-1.0,-1.0,-1.0,-1.0,-1.0,-1.0,-1.0,-1.0,-1.0,-1.0,-1.0
286.0,288.96,678.0,984.0,78.0,0.0,156.0,4.16,35.87,4.0,-1.0,-1.0,-1.0,-1.0,-1.0,-1.0,-1.0,-1.0,-1.0,-1.0,-1.0,-1.0,-1.0
435.0,154.0,1098.0,772.0,0.0,43.5,0.0,4.31,44.03,-1.0,-1.0,-1.0,-1.0,-1.0,-1.0,-1.0,-1.0,-1.0,-1.0,-1.0,-1.0,-1.0,-1.0
405.0,126.0,1125.0,675.0,0.0,45.0,0.0,14.0,96.815,-1.0,-1.0,47.06,-1.0,-1.0,-1.0,-1.0,-1.0,-1.0,-1.0,-1.0,-1.0,-1.0,-1.0
135.0,135.0,875.0,875.0,0.0,0.0,315.0,1.0,66.85,-1.0,-1.0,-1.0,-1.0,-1.0,-1.0,-1.0,-1.0,-1.0,-1.0,-1.0,-1.0,-1.0,-1.0
332.4,214.0,1212.0,520.0,0.0,71.3,71.3,0.0,39.491,-1.0,-1.0,-1.0,-1.0,-1.0,-1.0,-1.0,-1.0,-1.0,-1.0,-1.0,-1.0,-1.0,-1.0
385.0,137.5,816.1,816.1,82.5,0.0,82.5,20.6,72.42,-1.0,-1.0,-1.0,-1.0,-1.0,-1.0,-1.0,-1.0,-1.0,-1.0,-1.0,-1.0,-1.0,-1.0
243.0,135.8,974.0,1087.0,0.0,58.0,184.0,14.55,61.2,-1.0,10.2,-1.0,-1.0,-1.0,-1.0,-1.0,-1.0,-1.0,-1.0,-1.0,-1.0,-1.0,-1.0