Folder: Ec (part 2)

File: SCM_Ec.csv
 Cement(kg/m3), Water(kg/m3),Coarse aggregate(kg/m3),Fine aggregate(kg/m3), FA (kg/m3),SF (kg/m3),GGBFS (kg/m3),SP (kg/m3),Elastic modulus (GPa)
166.0,168.0,820.0,932.0,62.25,0.0,186.75,1.69,38.0
83.0,168.0,820.0,932.0,83.0,0.0,249.0,1.69,40.0
41.5,168.0,820.0,932.0,93.375,0.0,280.125,1.69,39.7
166.0,168.0,820.0,932.0,124.5,0.0,124.5,1.69,40.5
83.0,168.0,820.0,932.0,166.0,0.0,166.0,1.69,41.5
41.5,168.0,820.0,932.0,186.75,0.0,186.75,1.69,40.0
166.0,168.0,820.0,932.0,186.75,0.0,62.25,1.69,38.0
83.0,168.0,820.0,932.0,249.0,0.0,83.0,1.69,38.0
41.5,168.0,820.0,932.0,280.125,0.0,93.375,1.69,40.0
228.0,182.0,1100.0,770.0,0.0,0.0,228.0,0.0,23.7
228.0,182.0,1100.0,770.0,0.0,23.0,228.0,1.82,26.7
228.0,182.0,1100.0,770.0,0.0,46.0,182.0,2.58,29.0
228.0,182.0,1100.0,770.0,0.0,68.0,159.0,2.8,26.8
470.0,175.0,1203.0,647.0,0.0,30.0,0.0,9.78,35.5
450.0,175.0,1203.0,647.0,0.0,50.0,0.0,11.71,37.0
425.0,175.0,1203.0,647.0,0.0,75.0,0.0,13.34,38.1
720.0,231.0,710.0,730.0,0.0,80.0,0.0,33.0,51.3
640.0,252.0,710.0,730.0,0.0,160.0,0.0,33.0,55.0
560.0,273.0,710.0,730.0,0.0,240.0,0.0,33.0,55.9
720.0,197.0,710.0,730.0,80.0,0.0,0.0,34.0,52.1
640.0,185.0,710.0,730.0,160.0,0.0,0.0,32.0,56.2
560.0,172.0,710.0,730.0,240.0,0.0,0.0,30.0,56.4
480.0,220.0,699.0,819.0,96.0,0.0,0.0,10.1,31.0
490.0,186.0,683.0,838.0,98.0,49.0,0.0,11.6,33.0
420.0,165.0,746.0,847.0,180.0,0.0,0.0,13.02,41.6
360.0,165.0,735.0,837.0,240.0,0.0,0.0,19.98,32.0
300.0,165.0,723.0,825.0,300.0,0.0,0.0,20.4,23.5
240.0,165.0,712.0,815.0,360.0,0.0,0.0,22.02,24.0
360.0,165.0,734.0,835.0,180.0,60.0,0.0,22.02,39.0
300.0,165.0,723.0,825.0,240.0,60.0,0.0,21.0,37.0
240.0,165.0,712.0,813.0,300.0,60.0,0.0,19.98,38.9
180.0,165.0,701.0,804.0,360.0,60.0,0.0,18.0,30.0
340.0,153.34,1110.0,680.0,34.0,0.0,0.0,2.04,36.372
400.0,158.4,1055.0,647.0,40.0,0.0,0.0,1.12,31.829
420.0,168.0,1082.0,663.0,0.0,21.0,0.0,4.2,31.759
420.0,151.2,1102.0,675.0,0.0,0.0,42.0,3.36,33.173
440.0,135.52,1107.0,678.0,0.0,44.0,0.0,3.52,42.181
450.0,129.6,1002.0,614.0,0.0,0.0,90.0,3.6,41.963
445.0,144.62,944.0,578.0,0.0,44.5,89.0,7.12,43.11
437.0,204.0,785.0,908.0,51.0,26.0,0.0,10.28,26.9
424.0,204.0,785.0,908.0,51.0,39.0,0.0,10.28,27.0
411.0,204.0,785.0,908.0,51.0,51.0,0.0,10.26,28.13
411.0,204.0,785.0,908.0,77.0,26.0,0.0,10.28,27.16
398.0,204.0,785.0,908.0,77.0,39.0,0.0,10.28,28.0
386.0,204.0,785.0,908.0,77.0,51.0,0.0,10.28,28.8
386.0,204.0,785.0,908.0,103.0,26.0,0.0,10.3,29.5
373.0,204.0,785.0,908.0,103.0,39.0,0.0,10.3,30.9
360.0,204.0,785.0,908.0,103.0,51.0,0.0,10.28,31.1
360.0,204.0,785.0,908.0,129.0,26.0,0.0,10.3,29.0
347.0,204.0,785.0,908.0,129.0,39.0,0.0,10.3,27.0
334.0,204.0,785.0,908.0,129.0,51.0,0.0,10.28,26.6
334.0,204.0,785.0,908.0,154.0,26.0,0.0,10.28,26.0
321.0,204.0,785.0,908.0,154.0,39.0,0.0,10.28,25.9
308.0,204.0,785.0,908.0,154.0,51.0,0.0,10.26,25.8
250.0,125.0,1083.4,722.3,250.0,0.0,0.0,11.0,34.98
250.0,125.0,1093.0,728.7,125.0,0.0,125.0,11.0,33.96
250.0,125.0,1088.2,725.4,100.0,50.0,100.0,11.0,35.69
125.0,125.0,1060.8,707.2,375.0,0.0,0.0,11.0,31.43
125.0,125.0,1075.2,716.8,187.5,0.0,187.5,11.0,32.41
125.0,125.0,1068.0,712.0,150.0,75.0,150.0,11.0,34.03
368.0,161.0,1085.2,693.81,92.0,0.0,0.0,1.104,29.1
322.0,161.0,1085.2,693.81,138.0,0.0,0.0,1.104,27.9
276.0,161.0,1085.2,693.81,184.0,0.0,0.0,1.104,27.0
368.0,161.0,1085.2,693.81,0.0,0.0,92.0,1.104,29.5
322.0,161.0,1085.2,693.81,0.0,0.0,138.0,1.104,28.25
276.0,161.0,1085.2,693.81,0.0,0.0,184.0,1.104,27.75
437.0,176.0,924.0,743.0,80.0,0.0,0.0,4.65,47.0
333.0,173.0,924.0,743.0,162.0,0.0,0.0,3.71,44.0
225.0,170.0,924.0,743.0,247.0,0.0,0.0,3.21,39.0
115.0,167.0,924.0,743.0,336.0,0.0,0.0,2.93,31.0
350.0,140.0,986.0,720.0,100.0,0.0,0.0,10.8,55.7
350.0,153.0,966.0,706.0,100.0,0.0,0.0,9.5,37.0
350.0,167.0,947.0,692.0,100.0,0.0,0.0,8.1,35.0
350.0,180.0,927.0,678.0,100.0,0.0,0.0,6.8,28.5
350.0,140.0,1109.0,720.0,100.0,0.0,0.0,10.8,53.5
350.0,153.0,1087.0,706.0,100.0,0.0,0.0,9.5,45.0
350.0,167.0,1065.0,692.0,100.0,0.0,0.0,8.1,25.0
350.0,180.0,1043.0,678.0,100.0,0.0,0.0,6.8,15.7
350.0,140.0,1002.0,720.0,100.0,0.0,0.0,10.8,38.0
350.0,153.0,982.0,706.0,100.0,0.0,0.0,9.5,30.0
350.0,167.0,963.0,692.0,100.0,0.0,0.0,8.1,23.0
350.0,180.0,943.0,678.0,100.0,0.0,0.0,6.8,15.0
280.0,152.0,1097.0,731.2,120.0,0.0,0.0,0.0,50.67
320.0,152.0,1097.0,731.2,0.0,0.0,80.0,0.0,45.62
240.0,152.0,1097.0,731.2,0.0,0.0,160.0,0.0,51.12
260.0,152.0,1097.0,731.2,80.0,0.0,60.0,0.0,45.77
240.0,152.0,1097.0,731.2,80.0,0.0,80.0,0.0,51.09
248.0,210.12,812.0,853.0,248.0,0.0,0.0,5.0,28.69
248.0,226.24,806.0,853.0,248.0,0.0,0.0,5.0,27.89
248.0,210.12,812.0,853.0,124.0,0.0,124.0,5.0,31.71
248.0,226.24,806.0,853.0,124.0,0.0,124.0,5.0,30.83
124.0,210.12,812.0,853.0,186.0,0.0,186.0,5.0,31.27
124.0,226.24,806.0,853.0,186.0,0.0,186.0,5.0,30.25
124.0,210.12,812.0,853.0,159.0,53.0,159.0,5.0,32.35
124.0,226.24,806.0,853.0,159.0,53.0,159.0,5.0,31.8
271.0,208.36,739.0,819.0,135.5,0.0,135.5,8.13,31.01
135.5,208.36,739.0,819.0,162.6,81.3,162.6,8.13,32.31
138.0,191.4,1107.0,660.0,92.0,46.0,184.0,1.84,31.8
138.0,195.6,1071.0,660.0,92.0,46.0,184.0,1.84,28.5
138.0,200.7,1048.0,660.0,92.0,46.0,184.0,1.84,29.0
138.0,199.4,990.0,660.0,92.0,46.0,184.0,1.84,25.5
138.0,208.2,990.0,660.0,92.0,46.0,184.0,1.84,25.0
138.0,205.3,1007.0,635.0,92.0,46.0,184.0,1.84,22.0
138.0,209.5,1023.0,612.0,92.0,46.0,184.0,1.84,22.5
453.4,201.5,861.5,760.8,50.4,0.0,0.0,2.8,31.76
400.7,200.4,856.5,756.4,100.2,0.0,0.0,2.8,30.67
297.1,198.1,846.9,747.8,198.1,0.0,0.0,2.8,29.8
246.2,197.0,842.1,743.6,246.2,0.0,0.0,2.7,29.38
411.9,274.6,782.7,691.1,45.8,0.0,0.0,0.0,25.23
364.2,273.2,778.6,687.5,91.1,0.0,0.0,0.0,23.86
270.4,270.4,770.5,680.4,180.2,0.0,0.0,0.0,24.45
224.1,269.0,766.6,676.9,224.1,0.0,0.0,0.0,19.99
330.0,173.46,1198.0,798.0,83.0,0.0,0.0,1.45,37.1
289.0,173.46,1185.0,790.0,124.0,0.0,0.0,1.45,36.6
248.0,173.46,1172.0,781.0,165.0,0.0,0.0,1.45,34.4
356.0,186.9,1338.0,653.0,89.0,0.0,0.0,1.11,36.4
312.0,186.9,1322.0,645.0,133.0,0.0,0.0,1.11,35.5
267.0,186.9,1307.0,637.0,178.0,0.0,0.0,1.11,33.75
384.85,151.35,1144.6,706.5,0.0,47.57,0.0,5.19,42.0
371.88,151.35,1152.31,711.22,0.0,0.0,60.54,4.76,40.0
459.0,178.5,915.0,865.0,0.0,51.0,0.0,4.5,31.2
357.0,178.5,915.0,865.0,0.0,0.0,153.0,4.5,29.8
408.0,178.5,915.0,865.0,102.0,0.0,0.0,4.5,29.0
271.0,205.13,787.0,834.0,108.4,54.2,108.4,8.13,38.6
360.0,180.0,868.0,941.0,40.0,0.0,0.0,0.0,25.0
320.0,180.0,865.0,937.0,80.0,0.0,0.0,0.0,24.0
280.0,180.0,852.0,933.0,120.0,0.0,0.0,0.0,23.4
380.0,180.0,869.0,941.0,0.0,20.0,0.0,0.0,28.8
360.0,180.0,865.0,937.0,0.0,40.0,0.0,0.0,30.0
340.0,180.0,863.0,935.0,40.0,20.0,0.0,0.0,28.3
280.0,180.0,861.0,932.0,80.0,20.0,0.0,0.0,27.0
260.0,180.0,858.0,930.0,120.0,20.0,0.0,0.0,26.4
340.0,156.0,1799.0,1346.0,60.0,0.0,0.0,2.4,39.0
300.0,156.0,1779.0,1300.0,100.0,0.0,0.0,2.4,37.0
260.0,156.0,1763.0,1255.0,140.0,0.0,0.0,2.0,36.0
240.0,156.0,1816.0,1386.0,0.0,0.0,160.0,1.6,38.0
200.0,156.0,1812.0,1379.0,0.0,0.0,200.0,2.0,38.0
160.0,156.0,1809.0,1372.0,0.0,0.0,240.0,2.0,38.0
324.0,162.0,1027.0,750.0,81.0,0.0,0.0,0.0,26.3
291.0,155.0,1044.0,762.0,97.0,0.0,0.0,0.0,25.5
368.0,155.0,1057.0,772.0,0.0,19.0,0.0,0.0,30.2
194.0,155.0,1041.0,760.0,97.0,0.0,97.0,0.0,26.8
155.0,155.0,1037.0,757.0,116.0,0.0,116.0,0.0,22.9
194.0,155.0,1054.0,769.0,0.0,0.0,194.0,0.0,24.2
116.0,155.0,1048.0,765.0,0.0,19.0,252.0,0.0,21.7
342.0,155.0,1078.0,667.0,114.0,0.0,0.0,0.0,27.1
433.0,155.0,1094.0,677.0,0.0,23.0,0.0,0.0,33.4
228.0,155.0,1073.0,664.0,114.0,0.0,114.0,0.0,31.0
182.0,155.0,1069.0,661.0,137.0,0.0,137.0,0.0,24.1
228.0,155.0,1090.0,674.0,0.0,0.0,228.0,0.0,25.8
137.0,155.0,1083.0,670.0,0.0,13.0,296.0,0.0,21.7
388.0,155.0,1016.0,628.0,138.0,28.0,0.0,0.0,30.2
526.0,155.0,1041.0,644.0,0.0,28.0,0.0,0.0,35.9
277.0,155.0,1016.0,628.0,111.0,28.0,138.0,0.0,34.6
221.0,155.0,1009.0,624.0,138.0,28.0,166.0,0.0,24.6
277.0,155.0,1031.0,638.0,0.0,28.0,249.0,0.0,30.8
137.0,155.0,1083.0,670.0,0.0,28.0,296.0,0.0,30.7
350.0,190.0,876.0,830.0,150.0,0.0,0.0,9.1,16.0
300.0,200.0,860.0,845.0,200.0,0.0,0.0,9.0,13.0
250.0,210.0,856.0,856.0,250.0,0.0,0.0,8.6,8.5
323.1,158.0,1110.39,796.0,0.0,35.9,0.0,0.0,26.5
305.15,158.0,1110.39,796.0,0.0,53.85,0.0,0.0,28.9
287.2,158.0,1110.39,796.0,0.0,71.8,0.0,0.0,27.0
406.0,189.0,784.4,987.1,0.0,22.0,22.0,1.57,34.78
406.0,189.0,655.7,987.1,0.0,22.0,22.0,1.57,30.13
360.0,189.0,780.2,982.4,0.0,45.0,45.0,1.8,37.4
360.0,189.0,652.7,982.4,0.0,45.0,45.0,1.8,32.28
315.0,189.0,779.2,981.2,0.0,45.0,90.0,1.8,38.27
315.0,189.0,651.7,981.2,0.0,45.0,90.0,1.8,33.2
270.0,189.0,778.0,979.4,0.0,45.0,135.0,1.8,25.36
270.0,189.0,650.7,979.4,0.0,45.0,135.0,1.8,30.84
225.0,189.0,776.8,977.9,0.0,45.0,180.0,2.02,32.16
225.0,189.0,649.7,977.9,0.0,45.0,180.0,2.02,28.75
180.0,189.0,775.6,976.3,0.0,45.0,225.0,2.02,29.71
180.0,189.0,648.6,976.3,0.0,45.0,225.0,2.02,26.63
135.0,189.0,773.2,973.3,0.0,45.0,270.0,2.02,28.73
135.0,189.0,646.6,973.3,0.0,45.0,270.0,2.02,25.8
373.0,170.0,1035.0,697.0,0.0,0.0,42.0,2.9,34.1
290.0,170.0,1035.0,697.0,0.0,0.0,125.0,2.9,33.3
208.0,170.0,1035.0,697.0,0.0,0.0,207.0,2.9,32.0
320.0,160.0,1285.0,500.0,0.0,0.0,137.0,3.84,40.5
274.0,160.0,1285.0,500.0,0.0,0.0,183.0,3.29,41.0
229.0,160.0,1285.0,500.0,0.0,0.0,228.0,2.75,40.0
360.0,203.0,1040.0,482.0,0.0,0.0,90.0,4.95,12.5
270.0,203.0,1040.0,482.0,0.0,0.0,180.0,4.95,9.5
180.0,203.0,1040.0,482.0,0.0,0.0,270.0,4.95,9.4
427.5,112.5,1432.8,445.73,0.0,22.5,0.0,18.0,38.88
405.0,112.5,1427.87,444.19,0.0,45.0,0.0,15.75,41.55
382.5,112.5,1422.93,442.66,0.0,67.5,0.0,15.75,43.03
360.0,112.5,1417.99,441.12,0.0,90.0,0.0,13.5,40.35
337.5,112.5,1413.05,439.59,0.0,112.5,0.0,13.5,35.15
427.5,126.0,1125.0,675.0,0.0,22.5,0.0,14.0,46.08
405.0,126.0,1125.0,675.0,0.0,45.0,0.0,14.0,47.06
382.5,126.0,1125.0,675.0,0.0,67.5,0.0,14.0,48.26
405.0,126.0,1125.0,675.0,45.0,0.0,0.0,14.0,43.74
360.0,126.0,1125.0,675.0,90.0,0.0,0.0,14.0,43.06
315.0,126.0,1125.0,675.0,135.0,0.0,0.0,14.0,42.36
360.0,126.0,1125.0,675.0,0.0,0.0,90.0,14.0,45.04
270.0,126.0,1125.0,675.0,0.0,0.0,180.0,14.0,44.84
180.0,126.0,1125.0,675.0,0.0,0.0,270.0,14.0,43.09
300.0,160.0,1137.0,741.0,0.0,0.0,100.0,0.0,34.5
300.0,160.0,1246.0,741.0,0.0,0.0,100.0,0.0,35.73
300.0,160.0,1356.0,741.0,0.0,0.0,100.0,0.0,36.09

File: SCM_ft.csv
 Cement(kg/m3), Water(kg/m3),Coarse aggregate(kg/m3),Fine aggregate(kg/m3), FA (kg/m3),SF (kg/m3),GGBFS (kg/m3),SP (kg/m3),Splitting tensile strength (MPa)
300.0,150.0,1097.0,673.0,200.0,0.0,0.0,4.5,2.52
150.0,150.0,1097.0,673.0,350.0,0.0,0.0,4.0,2.05
225.0,150.0,1097.0,673.0,0.0,0.0,275.0,6.0,2.65
225.0,150.0,1097.0,673.0,200.0,0.0,75.0,5.0,2.5
260.0,214.9,832.0,785.0,260.0,0.0,0.0,4.78,1.57
260.0,214.9,832.0,785.0,104.0,52.0,104.0,6.86,3.66
130.0,214.9,832.0,785.0,195.0,0.0,195.0,7.28,1.67
290.0,163.0,1048.0,670.0,72.5,0.0,0.0,0.0,3.27
253.75,163.0,1048.0,670.0,108.75,0.0,0.0,0.0,3.7275
253.75,163.0,1048.0,670.0,108.75,0.0,0.0,0.0,3.4338
253.75,163.0,1048.0,670.0,108.75,0.0,0.0,0.0,3.64
235.62,163.0,1048.0,670.0,0.0,0.0,126.88,0.0,3.91
228.0,182.0,1100.0,770.0,0.0,0.0,228.0,0.0,3.88
228.0,182.0,1100.0,770.0,0.0,46.0,182.0,2.58,4.45
494.0,135.2,1146.0,667.0,0.0,26.0,0.0,18.2,6.38
442.0,135.2,1146.0,667.0,0.0,78.0,0.0,18.2,6.65
390.0,135.2,1146.0,667.0,0.0,130.0,0.0,18.2,5.75
459.0,153.0,1122.5,653.0,0.0,51.0,0.0,17.85,6.05
408.0,153.0,1122.5,653.0,0.0,102.0,0.0,17.85,6.24
475.0,170.0,1100.0,640.0,0.0,25.0,0.0,17.5,5.61
425.0,170.0,1100.0,640.0,0.0,75.0,0.0,17.5,5.75
375.0,170.0,1100.0,640.0,0.0,125.0,0.0,17.5,5.85
441.0,186.2,1078.0,628.0,0.0,49.0,0.0,17.15,5.17
392.0,186.2,1078.0,628.0,0.0,98.0,0.0,17.15,5.21
343.0,186.2,1078.0,628.0,0.0,147.0,0.0,17.15,4.85
432.0,201.6,1058.0,616.0,0.0,48.0,0.0,16.8,4.45
384.0,201.6,1058.0,616.0,0.0,96.0,0.0,16.8,4.54
336.0,201.6,1058.0,616.0,0.0,144.0,0.0,16.8,4.35
465.0,227.7,590.0,910.0,85.0,0.0,0.0,10.73,2.4
415.0,233.3,590.0,910.0,135.0,0.0,0.0,9.91,1.83
355.0,241.6,590.0,910.0,195.0,0.0,0.0,9.91,1.55
360.0,165.0,735.0,837.0,240.0,0.0,0.0,19.98,3.73
240.0,165.0,712.0,815.0,360.0,0.0,0.0,22.02,3.5
300.0,165.0,723.0,825.0,240.0,60.0,0.0,21.0,4.01
180.0,165.0,701.0,804.0,360.0,60.0,0.0,18.0,4.9
120.0,116.0,1200.0,600.0,280.0,0.0,0.0,0.0,2.51
200.0,120.0,1200.0,600.0,200.0,0.0,0.0,0.0,4.2
120.0,116.0,1200.0,600.0,280.0,0.0,0.0,0.0,2.82
200.0,120.0,1200.0,600.0,200.0,0.0,0.0,0.0,4.59
120.0,160.0,1200.0,600.0,280.0,0.0,0.0,0.0,2.04
200.0,156.0,1200.0,600.0,200.0,0.0,0.0,0.0,3.69
424.0,204.0,785.0,908.0,51.0,39.0,0.0,10.28,3.73
411.0,204.0,785.0,908.0,77.0,26.0,0.0,10.28,3.8
386.0,204.0,785.0,908.0,77.0,51.0,0.0,10.28,4.02
373.0,204.0,785.0,908.0,103.0,39.0,0.0,10.3,4.25
360.0,204.0,785.0,908.0,129.0,26.0,0.0,10.3,4.73
334.0,204.0,785.0,908.0,129.0,51.0,0.0,10.28,3.73
321.0,204.0,785.0,908.0,154.0,39.0,0.0,10.28,2.95
250.0,125.0,1083.4,722.3,250.0,0.0,0.0,11.0,5.38
250.0,125.0,1088.2,725.4,100.0,50.0,100.0,11.0,5.47
125.0,125.0,1075.2,716.8,187.5,0.0,187.5,11.0,4.83
368.0,161.0,1085.2,693.81,92.0,0.0,0.0,1.104,4.7
276.0,161.0,1085.2,693.81,184.0,0.0,0.0,1.104,4.48
322.0,161.0,1085.2,693.81,0.0,0.0,138.0,1.104,4.58
300.0,191.0,875.0,761.0,169.0,0.0,0.0,4.0,3.5
300.0,191.0,850.0,761.0,169.0,0.0,0.0,4.2,2.33
300.0,194.0,825.0,761.0,158.0,0.0,0.0,4.3,1.45
360.0,156.0,1134.0,610.0,0.0,60.0,180.0,9.6,6.14
175.0,175.0,1021.0,830.0,0.0,0.0,175.0,3.5,2.28
333.0,173.0,924.0,743.0,162.0,0.0,0.0,3.71,4.2
115.0,167.0,924.0,743.0,336.0,0.0,0.0,2.93,1.8
440.0,209.0,708.7,748.0,110.0,0.0,0.0,9.35,3.0
440.0,209.0,705.0,748.0,110.0,0.0,0.0,9.35,3.22
280.0,160.0,1104.0,736.0,0.0,0.0,120.0,2.0,2.0
200.0,160.0,1104.0,736.0,0.0,0.0,200.0,2.0,1.6
304.56,160.0,1270.0,605.0,84.6,33.84,169.2,3.6,4.27
262.26,160.0,1270.0,605.0,126.9,33.84,126.9,3.6,3.66
262.26,160.0,1270.0,605.0,126.9,33.84,211.5,3.6,3.66
219.96,160.0,1270.0,605.0,169.2,33.84,169.2,3.6,3.19
450.0,184.5,1201.5,306.0,0.0,0.0,306.0,3.78,3.0
315.0,184.5,1201.5,612.0,135.0,0.0,0.0,2.25,2.38
360.0,184.5,1201.5,306.0,90.0,0.0,306.0,7.56,2.52
270.0,184.5,1201.5,306.0,180.0,0.0,306.0,7.56,2.65
144.0,129.0,1115.0,770.0,127.0,0.0,16.0,2.296,3.2
111.0,128.0,1115.0,770.0,127.0,0.0,47.0,2.28,3.52
78.0,128.0,1115.0,770.0,127.0,0.0,78.0,2.264,3.91
140.0,114.0,1115.0,770.0,127.0,0.0,60.0,2.616,3.74
111.0,128.0,1115.0,770.0,127.0,0.0,47.0,2.28,3.52
320.0,152.0,1097.0,731.2,80.0,0.0,0.0,0.0,5.35
240.0,152.0,1097.0,731.2,160.0,0.0,0.0,0.0,4.02
280.0,152.0,1097.0,731.2,0.0,0.0,120.0,0.0,4.19
260.0,152.0,1097.0,731.2,80.0,0.0,60.0,0.0,4.15
444.6,158.0,1151.0,647.0,49.4,0.0,0.0,4.94,5.46
395.2,158.0,1151.0,647.0,98.8,0.0,0.0,4.94,5.71
479.2,158.0,1151.0,647.0,0.0,14.8,0.0,4.94,5.52
449.5,158.0,1151.0,647.0,0.0,44.5,0.0,4.94,6.08
405.1,158.0,1151.0,647.0,74.1,14.8,0.0,4.94,5.62
375.4,158.0,1151.0,647.0,74.1,44.5,0.0,4.94,6.1
273.125,190.0,754.0,939.0,47.5,11.875,142.5,1.1875,3.31
225.625,190.0,752.5,937.1,47.5,11.875,190.0,1.1875,3.18
142.5,190.0,746.1,929.1,71.25,23.75,237.5,1.6625,2.55
118.75,180.5,742.2,924.2,71.25,23.75,237.5,1.579375,2.36
273.125,190.0,697.1,921.6,47.5,11.875,142.5,1.1875,3.47
225.625,190.0,695.7,919.7,47.5,11.875,190.0,1.1875,3.25
142.5,190.0,689.8,911.9,71.25,23.75,237.5,1.6625,2.71
118.75,180.5,686.4,907.4,71.25,23.75,237.5,1.579375,2.48
138.0,191.4,1107.0,660.0,92.0,46.0,184.0,1.84,2.93
138.0,200.7,1048.0,660.0,92.0,46.0,184.0,1.84,3.05
138.0,208.2,990.0,660.0,92.0,46.0,184.0,1.84,2.89
138.0,209.5,1023.0,612.0,92.0,46.0,184.0,1.84,2.88
289.0,173.46,1185.0,790.0,124.0,0.0,0.0,1.45,3.8
356.0,186.9,1338.0,653.0,89.0,0.0,0.0,1.11,3.71
267.0,186.9,1307.0,637.0,178.0,0.0,0.0,1.11,3.3
371.88,151.35,1152.31,711.22,0.0,0.0,60.54,4.76,4.8
315.0,88.2,1504.0,75.2,0.0,35.0,0.0,4.375,2.38
345.0,134.4,1434.0,154.0,38.0,0.0,0.0,0.0,3.72
269.0,134.4,1587.0,0.0,38.0,38.0,0.0,0.0,4.2
269.0,134.4,1280.0,307.0,38.0,38.0,0.0,0.0,5.25
357.0,178.5,915.0,865.0,0.0,0.0,153.0,4.5,3.85
666.0,152.0,1103.0,523.0,0.0,0.0,74.0,8.88,5.66
518.0,152.0,1097.0,520.0,0.0,0.0,222.0,8.88,6.23
370.0,152.0,1091.0,518.0,0.0,0.0,370.0,8.88,6.46
681.0,152.0,1092.0,518.0,0.0,59.0,0.0,8.88,7.02
651.0,151.0,1081.0,513.0,0.0,89.0,0.0,8.88,7.56
607.0,151.0,1069.0,507.0,0.0,133.0,0.0,8.88,7.72
503.0,151.0,1075.0,510.0,0.0,89.0,148.0,8.88,7.94
355.0,151.0,1069.0,507.0,0.0,89.0,296.0,8.88,8.26
227.5,140.0,1314.2,744.3,87.5,0.0,35.0,3.5,4.21
227.5,140.0,1314.2,744.3,87.5,35.0,0.0,3.5,4.13
227.5,140.0,1314.2,744.3,0.0,52.5,70.0,3.5,4.1
227.5,140.0,1314.2,744.3,35.0,87.5,0.0,3.5,3.94
227.5,140.0,1314.2,744.3,0.0,87.5,35.0,3.5,3.86
227.5,140.0,1314.2,744.3,70.0,0.0,52.0,3.5,3.68
504.8,185.5,797.5,886.6,0.0,10.302,0.0,11.3322,4.75
484.2,185.5,794.5,883.2,0.0,30.906,0.0,11.3323,4.99
463.6,185.5,791.5,879.9,0.0,51.51,0.0,11.33242,5.05
484.2,185.5,753.2,837.4,30.906,0.0,0.0,11.3323,4.07
401.8,185.5,729.4,810.9,113.322,0.0,0.0,11.3327,4.25
345.1,185.5,694.6,772.2,169.983,0.0,0.0,11.3318,4.19
288.5,185.5,659.8,733.5,226.644,0.0,0.0,11.3332,3.98
324.0,250.0,836.0,631.0,0.0,23.0,116.0,0.0,3.0
324.0,271.7,813.0,631.0,0.0,23.0,116.0,0.0,2.89
441.75,200.0,737.0,937.5,23.25,0.0,0.0,3.72,3.24
395.25,200.0,737.0,937.5,69.75,0.0,0.0,3.72,3.5
348.75,200.0,737.0,937.5,116.25,0.0,0.0,3.72,3.63
302.25,200.0,737.0,937.5,162.75,0.0,0.0,3.72,3.51
418.5,200.0,737.0,937.5,0.0,46.5,0.0,3.72,3.75
372.0,200.0,737.0,937.5,0.0,93.0,0.0,3.72,3.52
348.75,200.0,737.0,937.5,93.0,23.85,0.0,3.72,3.51
348.75,200.0,737.0,937.5,46.5,69.75,0.0,3.72,3.7
348.75,200.0,737.0,937.5,0.0,116.25,0.0,3.72,3.58
285.3,152.16,1268.0,634.0,0.0,31.7,0.0,0.0,3.5
301.15,158.5,1268.0,634.0,15.85,0.0,0.0,0.0,3.31
269.45,152.16,1268.0,634.0,47.55,0.0,0.0,0.0,3.23
285.3,152.16,1268.0,634.0,15.85,15.85,0.0,0.0,3.6
360.0,180.0,868.0,941.0,40.0,0.0,0.0,0.0,2.4
280.0,180.0,852.0,933.0,120.0,0.0,0.0,0.0,2.0
360.0,180.0,865.0,937.0,0.0,40.0,0.0,0.0,3.17
280.0,180.0,861.0,932.0,80.0,20.0,0.0,0.0,2.36
486.0,183.6,817.56,828.36,0.0,54.0,0.0,4.86,4.78
291.0,155.0,1044.0,762.0,97.0,0.0,0.0,0.0,3.2
194.0,155.0,1041.0,760.0,97.0,0.0,97.0,0.0,3.8
194.0,155.0,1054.0,769.0,0.0,0.0,194.0,0.0,4.1
342.0,155.0,1078.0,667.0,114.0,0.0,0.0,0.0,4.0
228.0,155.0,1073.0,664.0,114.0,0.0,114.0,0.0,4.1
228.0,155.0,1090.0,674.0,0.0,0.0,228.0,0.0,4.7
388.0,155.0,1016.0,628.0,138.0,28.0,0.0,0.0,5.3
277.0,155.0,1016.0,628.0,111.0,28.0,138.0,0.0,4.8
277.0,155.0,1031.0,638.0,0.0,28.0,249.0,0.0,4.9
285.0,171.0,1130.94,679.32,76.0,19.0,0.0,0.0,2.84
19.0,171.0,1130.94,679.32,152.0,19.0,0.0,0.0,2.75
237.5,171.0,1130.94,679.32,114.0,28.5,0.0,0.0,3.24
266.0,171.0,1130.94,679.32,76.0,38.0,0.0,0.0,3.15
190.0,171.0,1130.94,679.32,152.0,38.0,0.0,0.0,3.02
350.0,190.0,876.0,830.0,150.0,0.0,0.0,9.1,2.0
250.0,210.0,856.0,856.0,250.0,0.0,0.0,8.6,1.3
244.0,142.5,1325.0,705.0,75.0,0.0,56.0,1.5,6.3
206.0,142.5,1317.0,700.0,113.0,0.0,56.0,1.5,6.9
305.15,158.0,1110.39,796.0,0.0,53.85,0.0,0.0,3.4
675.0,225.0,570.0,688.0,75.0,0.0,0.0,8.25,4.0
712.5,225.0,570.0,688.0,0.0,37.5,0.0,11.25,4.3
600.0,225.0,570.0,688.0,112.5,37.5,0.0,9.75,4.4
406.0,189.0,784.4,987.1,0.0,22.0,22.0,1.57,3.74
360.0,189.0,780.2,982.4,0.0,45.0,45.0,1.8,4.01
315.0,189.0,779.2,981.2,0.0,45.0,90.0,1.8,4.19
270.0,189.0,778.0,979.4,0.0,45.0,135.0,1.8,3.63
225.0,189.0,776.8,977.9,0.0,45.0,180.0,2.02,3.24
180.0,189.0,775.6,976.3,0.0,45.0,225.0,2.02,2.74
135.0,189.0,773.2,973.3,0.0,45.0,270.0,2.02,2.4
598.0,350.1,934.0,915.0,0.0,0.0,180.0,0.0,3.25
219.06,197.1,1139.1,657.19,0.0,46.58,199.15,0.0,3.43
486.0,165.24,817.56,828.36,0.0,54.0,0.0,4.86,4.8
442.0,288.96,678.0,984.0,78.0,0.0,0.0,4.16,3.75
421.2,288.96,678.0,984.0,78.0,20.8,0.0,4.16,4.15
390.0,288.96,678.0,984.0,78.0,0.0,52.0,4.16,3.18
286.0,288.96,678.0,984.0,78.0,0.0,156.0,4.16,4.0
234.0,195.0,1200.0,710.0,0.0,0.0,142.0,0.0,2.9
312.0,203.0,1174.0,710.0,0.0,0.0,71.0,0.0,2.86
156.0,203.0,1174.0,710.0,0.0,0.0,212.0,0.0,2.57
234.0,207.0,1148.0,710.0,0.0,0.0,142.0,0.0,2.72
312.0,215.0,1096.0,710.0,0.0,0.0,71.0,0.0,2.66
156.0,215.0,1096.0,710.0,0.0,0.0,212.0,0.0,2.36
270.0,203.0,1040.0,482.0,0.0,0.0,180.0,4.95,2.76
300.0,160.0,1137.0,741.0,0.0,0.0,100.0,0.0,4.16
300.0,160.0,1356.0,741.0,0.0,0.0,100.0,0.0,4.3
178.56,197.0,1011.93,795.09,0.0,9.75,0.0,0.0,3.52
148.32,197.0,1015.77,798.1,0.0,0.0,45.6,0.0,3.42
128.16,197.0,1013.93,796.66,0.0,0.0,63.84,0.0,3.44